 DDSCAT --- DDSCAT 7.2.2 [12.06.05]   
 TARGET --- Cyl.prism, NAT=   1320 NFAC=  52 NLAY=  20 asp.ratio= 2.4580      
 PBCGS2 --- method of solution 
 GKDLDR --- prescription for polarizabilies
 CYLNDRCAP --- shape 
    1320     = NAT0 = number of dipoles
  0.14695066 = d/aeff for this target [d=dipole spacing]
    0.004940 = d (physical units)
  AEFF=      0.033616 = effective radius (physical units)
  WAVE=      0.342857 = wavelength (in vacuo, physical units)
K*AEFF=      0.616045 = 2*pi*aeff/lambda
NAMBIENT=    1.000000 = refractive index of ambient medium
n= ( 1.7712 ,  1.8476),  eps.= ( -0.2764 ,  6.5446)  |m|kd=  0.2317 for subs. 1
   TOL= 1.000E-05 = error tolerance for CCG method
( 1.00000  0.00000  0.00000) = target axis A1 in Target Frame
( 0.00000  1.00000  0.00000) = target axis A2 in Target Frame
  NAVG=   285 = (theta,phi) values used in comp. of Qsca,g
( 0.09053  0.00000  0.00000) = k vector (latt. units) in Lab Frame
( 0.00000, 0.00000)( 1.00000, 0.00000)( 0.00000, 0.00000)=inc.pol.vec. 1 in LF
( 0.00000, 0.00000)(-0.00000, 0.00000)( 1.00000,-0.00000)=inc.pol.vec. 2 in LF
   0.000   0.000 = beta_min, beta_max ;  NBETA = 1
   0.000   0.000 = theta_min, theta_max; NTHETA= 1
   0.000   0.000 = phi_min, phi_max   ;   NPHI = 1

 0.5000 = ETASCA = param. controlling # of scatt. dirs used to calculate <cos> etc.
 Results averaged over    1 target orientations
                   and    2 incident polarizations
          Qext       Qabs       Qsca      g(1)=<cos>  <cos^2>     Qbk       Qpha
 JO=1:  1.1353E+00 9.8445E-01 1.5086E-01  3.7391E-01 3.9552E-01 2.1482E-03  8.6821E-01
 JO=2:  1.1353E+00 9.8445E-01 1.5086E-01  3.7391E-01 3.9552E-01 2.1483E-03  8.6821E-01
 mean:  1.1353E+00 9.8445E-01 1.5086E-01  3.7391E-01 3.9552E-01 2.1482E-03  8.6821E-01
 Qpol=  8.3447E-07                                                  dQpha= -8.3447E-07
         Qsca*g(1)   Qsca*g(2)   Qsca*g(3)   iter  mxiter  Nsca
 JO=1:  5.6408E-02 -2.5861E-09 -7.2715E-09      8   1200    285
 JO=2:  5.6407E-02  6.0171E-09  2.8458E-09      8   1200    285
 mean:  5.6407E-02  1.7155E-09 -2.2129E-09
            Mueller matrix elements for selected scattering directions in Lab Frame   
 theta    phi    Pol.    S_11        S_12        S_21       S_22       S_31       S_41
  0.00   0.00  0.00000  3.8745E-02 -1.4901E-08 -1.490E-08  3.874E-02  2.428E-10 -4.328E-10
  5.00   0.00  0.00394  3.8579E-02 -1.5217E-04 -1.522E-04  3.858E-02  4.866E-10 -5.531E-10
 10.00   0.00  0.01584  3.8086E-02 -6.0328E-04 -6.033E-04  3.809E-02  1.053E-09 -5.981E-10
 15.00   0.00  0.03587  3.7274E-02 -1.3369E-03 -1.337E-03  3.727E-02 -1.120E-10  7.770E-10
 20.00   0.00  0.06431  3.6155E-02 -2.3252E-03 -2.325E-03  3.615E-02  2.715E-10 -8.061E-10
 25.00   0.00  0.10155  3.4751E-02 -3.5288E-03 -3.529E-03  3.475E-02  1.816E-10 -6.461E-11
 30.00   0.00  0.14797  3.3092E-02 -4.8966E-03 -4.897E-03  3.309E-02  8.356E-11 -3.440E-10
 35.00   0.00  0.20396  3.1215E-02 -6.3667E-03 -6.367E-03  3.121E-02  2.691E-10  1.571E-09
 40.00   0.00  0.26974  2.9168E-02 -7.8677E-03 -7.868E-03  2.917E-02 -2.827E-10 -1.016E-09
 45.00   0.00  0.34521  2.7005E-02 -9.3224E-03 -9.322E-03  2.700E-02 -1.477E-09 -4.506E-09
 50.00   0.00  0.42972  2.4786E-02 -1.0651E-02 -1.065E-02  2.479E-02 -1.150E-09 -4.700E-10
 55.00   0.00  0.52177  2.2574E-02 -1.1779E-02 -1.178E-02  2.257E-02  6.929E-10 -1.013E-09
 60.00   0.00  0.61865  2.0428E-02 -1.2638E-02 -1.264E-02  2.043E-02  2.677E-09  1.389E-10
 65.00   0.00  0.71615  1.8402E-02 -1.3179E-02 -1.318E-02  1.840E-02 -1.753E-09 -1.210E-09
 70.00   0.00  0.80852  1.6538E-02 -1.3371E-02 -1.337E-02  1.654E-02  7.890E-10 -6.423E-11
 75.00   0.00  0.88871  1.4862E-02 -1.3208E-02 -1.321E-02  1.486E-02  1.202E-09  1.597E-09
 80.00   0.00  0.94928  1.3388E-02 -1.2709E-02 -1.271E-02  1.339E-02 -1.042E-09  7.437E-10
 85.00   0.00  0.98375  1.2111E-02 -1.1914E-02 -1.191E-02  1.211E-02  6.776E-10 -8.407E-10
 90.00   0.00  0.98811  1.1015E-02 -1.0884E-02 -1.088E-02  1.101E-02 -5.273E-10 -8.011E-10
 95.00   0.00  0.96190  1.0072E-02 -9.6885E-03 -9.688E-03  1.007E-02 -8.215E-11 -5.731E-10
100.00   0.00  0.90835  9.2520E-03 -8.4041E-03 -8.404E-03  9.252E-03 -5.777E-12 -2.317E-10
105.00   0.00  0.83345  8.5227E-03 -7.1032E-03 -7.103E-03  8.523E-03 -7.434E-11  9.852E-10
110.00   0.00  0.74455  7.8562E-03 -5.8493E-03 -5.849E-03  7.856E-03 -8.516E-11  2.777E-10
115.00   0.00  0.64888  7.2314E-03 -4.6923E-03 -4.692E-03  7.231E-03  4.584E-10 -1.180E-09
120.00   0.00  0.55254  6.6347E-03 -3.6659E-03 -3.666E-03  6.635E-03  2.995E-10  1.753E-10
125.00   0.00  0.46009  6.0605E-03 -2.7884E-03 -2.788E-03  6.060E-03 -3.123E-11  3.816E-10
130.00   0.00  0.37457  5.5093E-03 -2.0637E-03 -2.064E-03  5.509E-03 -7.191E-10  3.305E-10
135.00   0.00  0.29772  4.9864E-03 -1.4845E-03 -1.485E-03  4.986E-03  3.407E-11  3.436E-10
140.00   0.00  0.23031  4.4993E-03 -1.0362E-03 -1.036E-03  4.499E-03 -1.095E-10  2.437E-10
145.00   0.00  0.17250  4.0560E-03 -6.9963E-04 -6.996E-04  4.056E-03  6.113E-11 -1.726E-10
150.00   0.00  0.12401  3.6636E-03 -4.5431E-04 -4.543E-04  3.664E-03 -3.620E-10 -5.748E-11
155.00   0.00  0.08438  3.3275E-03 -2.8076E-04 -2.808E-04  3.328E-03 -8.329E-11 -1.586E-11
160.00   0.00  0.05302  3.0513E-03 -1.6178E-04 -1.618E-04  3.051E-03 -1.265E-10  1.884E-10
165.00   0.00  0.02937  2.8364E-03 -8.3319E-05 -8.332E-05  2.836E-03 -1.092E-10  5.016E-11
170.00   0.00  0.01291  2.6833E-03 -3.4633E-05 -3.463E-05  2.683E-03 -1.846E-10  4.930E-11
175.00   0.00  0.00320  2.5917E-03 -8.3053E-06 -8.305E-06  2.592E-03 -9.987E-11  5.630E-11
180.00   0.00  0.00000  2.5613E-03 -5.8208E-09 -5.821E-09  2.561E-03 -8.873E-11  1.653E-11
