 DDSCAT --- DDSCAT 7.2.2 [12.06.05]   
 TARGET --- Cyl.prism, NAT=   1320 NFAC=  52 NLAY=  20 asp.ratio= 2.4580      
 PBCGS2 --- method of solution 
 GKDLDR --- prescription for polarizabilies
 CYLNDRCAP --- shape 
    1320     = NAT0 = number of dipoles
  0.14695066 = d/aeff for this target [d=dipole spacing]
    0.004940 = d (physical units)
  AEFF=      0.033616 = effective radius (physical units)
  WAVE=      0.364286 = wavelength (in vacuo, physical units)
K*AEFF=      0.579807 = 2*pi*aeff/lambda
NAMBIENT=    1.000000 = refractive index of ambient medium
n= ( 1.7169 ,  1.8610),  eps.= ( -0.5159 ,  6.3903)  |m|kd=  0.2157 for subs. 1
   TOL= 1.000E-05 = error tolerance for CCG method
( 1.00000  0.00000  0.00000) = target axis A1 in Target Frame
( 0.00000  1.00000  0.00000) = target axis A2 in Target Frame
  NAVG=   285 = (theta,phi) values used in comp. of Qsca,g
( 0.08520  0.00000  0.00000) = k vector (latt. units) in Lab Frame
( 0.00000, 0.00000)( 1.00000, 0.00000)( 0.00000, 0.00000)=inc.pol.vec. 1 in LF
( 0.00000, 0.00000)(-0.00000, 0.00000)( 1.00000,-0.00000)=inc.pol.vec. 2 in LF
   0.000   0.000 = beta_min, beta_max ;  NBETA = 1
   0.000   0.000 = theta_min, theta_max; NTHETA= 1
   0.000   0.000 = phi_min, phi_max   ;   NPHI = 1

 0.5000 = ETASCA = param. controlling # of scatt. dirs used to calculate <cos> etc.
 Results averaged over    1 target orientations
                   and    2 incident polarizations
          Qext       Qabs       Qsca      g(1)=<cos>  <cos^2>     Qbk       Qpha
 JO=1:  1.0490E+00 9.2226E-01 1.2675E-01  3.3485E-01 3.9175E-01 2.6875E-03  8.2987E-01
 JO=2:  1.0490E+00 9.2226E-01 1.2675E-01  3.3485E-01 3.9175E-01 2.6875E-03  8.2987E-01
 mean:  1.0490E+00 9.2226E-01 1.2675E-01  3.3485E-01 3.9175E-01 2.6875E-03  8.2987E-01
 Qpol= -4.7684E-07                                                  dQpha=  5.3644E-07
         Qsca*g(1)   Qsca*g(2)   Qsca*g(3)   iter  mxiter  Nsca
 JO=1:  4.2442E-02  1.6833E-09  8.0574E-09      9   1200    285
 JO=2:  4.2442E-02  4.9996E-09 -1.0783E-09      9   1200    285
 mean:  4.2442E-02  3.3415E-09  3.4896E-09
            Mueller matrix elements for selected scattering directions in Lab Frame   
 theta    phi    Pol.    S_11        S_12        S_21       S_22       S_31       S_41
  0.00   0.00  0.00000  2.7231E-02  1.0245E-08  1.024E-08  2.723E-02  5.502E-10 -1.396E-11
  5.00   0.00  0.00394  2.7116E-02 -1.0688E-04 -1.069E-04  2.712E-02  6.227E-10  2.048E-10
 10.00   0.00  0.01583  2.6775E-02 -4.2384E-04 -4.238E-04  2.677E-02  2.503E-10 -3.479E-10
 15.00   0.00  0.03584  2.6212E-02 -9.3955E-04 -9.395E-04  2.621E-02  4.704E-10 -3.117E-10
 20.00   0.00  0.06427  2.5439E-02 -1.6350E-03 -1.635E-03  2.544E-02  4.371E-10 -6.213E-10
 25.00   0.00  0.10147  2.4471E-02 -2.4832E-03 -2.483E-03  2.447E-02  1.693E-10  2.634E-10
 30.00   0.00  0.14786  2.3329E-02 -3.4495E-03 -3.449E-03  2.333E-02  6.972E-10 -4.132E-11
 35.00   0.00  0.20381  2.2039E-02 -4.4918E-03 -4.492E-03  2.204E-02  1.457E-09 -5.269E-10
 40.00   0.00  0.26953  2.0635E-02 -5.5618E-03 -5.562E-03  2.064E-02  8.224E-11 -3.778E-10
 45.00   0.00  0.34494  1.9154E-02 -6.6072E-03 -6.607E-03  1.915E-02  1.631E-09 -1.457E-10
 50.00   0.00  0.42941  1.7638E-02 -7.5738E-03 -7.574E-03  1.764E-02  2.505E-10 -7.272E-10
 55.00   0.00  0.52142  1.6128E-02 -8.4095E-03 -8.410E-03  1.613E-02 -1.645E-09 -1.258E-09
 60.00   0.00  0.61832  1.4666E-02 -9.0682E-03 -9.068E-03  1.467E-02  1.255E-09 -1.126E-09
 65.00   0.00  0.71594  1.3288E-02 -9.5133E-03 -9.513E-03  1.329E-02  3.800E-10  7.493E-11
 70.00   0.00  0.80857  1.2023E-02 -9.7213E-03 -9.721E-03  1.202E-02  4.262E-10 -3.188E-10
 75.00   0.00  0.88921  1.0891E-02 -9.6840E-03 -9.684E-03  1.089E-02  3.220E-10  5.934E-10
 80.00   0.00  0.95045  9.8999E-03 -9.4093E-03 -9.409E-03  9.900E-03  7.987E-10 -5.037E-10
 85.00   0.00  0.98579  9.0493E-03 -8.9207E-03 -8.921E-03  9.049E-03  9.502E-10 -4.238E-10
 90.00   0.00  0.99119  8.3277E-03 -8.2543E-03 -8.254E-03  8.328E-03 -5.392E-11 -4.304E-10
 95.00   0.00  0.96608  7.7172E-03 -7.4554E-03 -7.455E-03  7.717E-03  1.952E-10  5.099E-10
100.00   0.00  0.91355  7.1958E-03 -6.5737E-03 -6.574E-03  7.196E-03  3.304E-10 -2.023E-10
105.00   0.00  0.83951  6.7406E-03 -5.6588E-03 -5.659E-03  6.741E-03  1.414E-09  1.978E-10
110.00   0.00  0.75123  6.3304E-03 -4.7556E-03 -4.756E-03  6.330E-03 -1.963E-10 -6.203E-11
115.00   0.00  0.65589  5.9481E-03 -3.9013E-03 -3.901E-03  5.948E-03  3.373E-10  1.651E-10
120.00   0.00  0.55962  5.5819E-03 -3.1238E-03 -3.124E-03  5.582E-03 -2.581E-10  6.223E-10
125.00   0.00  0.46701  5.2254E-03 -2.4403E-03 -2.440E-03  5.225E-03 -1.896E-10  1.925E-10
130.00   0.00  0.38112  4.8769E-03 -1.8587E-03 -1.859E-03  4.877E-03  4.241E-10 -1.057E-09
135.00   0.00  0.30372  4.5390E-03 -1.3786E-03 -1.379E-03  4.539E-03  1.319E-10  2.204E-10
140.00   0.00  0.23564  4.2167E-03 -9.9361E-04 -9.936E-04  4.217E-03 -5.229E-11  1.649E-10
145.00   0.00  0.17704  3.9160E-03 -6.9329E-04 -6.933E-04  3.916E-03 -9.535E-11 -1.619E-10
150.00   0.00  0.12770  3.6435E-03 -4.6526E-04 -4.653E-04  3.643E-03  2.852E-10  1.695E-11
155.00   0.00  0.08718  3.4046E-03 -2.9681E-04 -2.968E-04  3.405E-03 -8.730E-11 -9.832E-11
160.00   0.00  0.05496  3.2042E-03 -1.7612E-04 -1.761E-04  3.204E-03 -6.795E-12 -4.060E-11
165.00   0.00  0.03054  3.0455E-03 -9.3010E-05 -9.301E-05  3.045E-03 -1.973E-11  9.088E-11
170.00   0.00  0.01345  2.9308E-03 -3.9421E-05 -3.942E-05  2.931E-03  7.596E-11 -3.595E-11
175.00   0.00  0.00334  2.8615E-03 -9.5678E-06 -9.568E-06  2.861E-03  5.244E-11  1.898E-11
180.00   0.00  0.00000  2.8383E-03  2.5611E-09  2.561E-09  2.838E-03  2.914E-11  4.169E-11
