 DDSCAT --- DDSCAT 7.2.2 [12.06.05]   
 TARGET --- Cyl.prism, NAT=   1320 NFAC=  52 NLAY=  20 asp.ratio= 2.4580      
 PBCGS2 --- method of solution 
 GKDLDR --- prescription for polarizabilies
 CYLNDRCAP --- shape 
    1320     = NAT0 = number of dipoles
  0.14695066 = d/aeff for this target [d=dipole spacing]
    0.004940 = d (physical units)
  AEFF=      0.033616 = effective radius (physical units)
  WAVE=      0.428571 = wavelength (in vacuo, physical units)
K*AEFF=      0.492836 = 2*pi*aeff/lambda
NAMBIENT=    1.000000 = refractive index of ambient medium
n= ( 1.6140 ,  1.9380),  eps.= ( -1.1509 ,  6.2562)  |m|kd=  0.1827 for subs. 1
   TOL= 1.000E-05 = error tolerance for CCG method
( 1.00000  0.00000  0.00000) = target axis A1 in Target Frame
( 0.00000  1.00000  0.00000) = target axis A2 in Target Frame
  NAVG=   285 = (theta,phi) values used in comp. of Qsca,g
( 0.07242  0.00000  0.00000) = k vector (latt. units) in Lab Frame
( 0.00000, 0.00000)( 1.00000, 0.00000)( 0.00000, 0.00000)=inc.pol.vec. 1 in LF
( 0.00000, 0.00000)(-0.00000, 0.00000)( 1.00000,-0.00000)=inc.pol.vec. 2 in LF
   0.000   0.000 = beta_min, beta_max ;  NBETA = 1
   0.000   0.000 = theta_min, theta_max; NTHETA= 1
   0.000   0.000 = phi_min, phi_max   ;   NPHI = 1

 0.5000 = ETASCA = param. controlling # of scatt. dirs used to calculate <cos> etc.
 Results averaged over    1 target orientations
                   and    2 incident polarizations
          Qext       Qabs       Qsca      g(1)=<cos>  <cos^2>     Qbk       Qpha
 JO=1:  8.3927E-01 7.6058E-01 7.8693E-02  2.4448E-01 3.8762E-01 3.2314E-03  7.4035E-01
 JO=2:  8.3927E-01 7.6058E-01 7.8692E-02  2.4448E-01 3.8762E-01 3.2314E-03  7.4035E-01
 mean:  8.3927E-01 7.6058E-01 7.8692E-02  2.4448E-01 3.8762E-01 3.2314E-03  7.4035E-01
 Qpol=  7.1526E-07                                                  dQpha=  2.9802E-07
         Qsca*g(1)   Qsca*g(2)   Qsca*g(3)   iter  mxiter  Nsca
 JO=1:  1.9239E-02  3.2371E-10  2.2388E-09      9   1200    285
 JO=2:  1.9239E-02  2.7571E-09 -1.8063E-09      9   1200    285
 mean:  1.9239E-02  1.5404E-09  2.1624E-10
            Mueller matrix elements for selected scattering directions in Lab Frame   
 theta    phi    Pol.    S_11        S_12        S_21       S_22       S_31       S_41
  0.00   0.00  0.00000  1.0681E-02  5.5879E-09  5.588E-09  1.068E-02 -2.035E-10  2.066E-11
  5.00   0.00  0.00393  1.0638E-02 -4.1849E-05 -4.185E-05  1.064E-02 -1.908E-10  4.108E-11
 10.00   0.00  0.01580  1.0508E-02 -1.6602E-04 -1.660E-04  1.051E-02 -3.148E-10  2.689E-11
 15.00   0.00  0.03577  1.0294E-02 -3.6827E-04 -3.683E-04  1.029E-02 -9.528E-11 -8.342E-11
 20.00   0.00  0.06414  1.0002E-02 -6.4151E-04 -6.415E-04  1.000E-02  2.915E-11 -3.132E-10
 25.00   0.00  0.10126  9.6370E-03 -9.7585E-04 -9.758E-04  9.637E-03 -2.413E-11  1.290E-10
 30.00   0.00  0.14754  9.2084E-03 -1.3586E-03 -1.359E-03  9.208E-03 -3.637E-10 -1.659E-12
 35.00   0.00  0.20335  8.7267E-03 -1.7746E-03 -1.775E-03  8.727E-03  1.077E-10 -5.942E-11
 40.00   0.00  0.26891  8.2048E-03 -2.2064E-03 -2.206E-03  8.205E-03 -1.054E-10 -3.627E-10
 45.00   0.00  0.34415  7.6570E-03 -2.6351E-03 -2.635E-03  7.657E-03  1.148E-10  5.879E-10
 50.00   0.00  0.42843  7.0985E-03 -3.0412E-03 -3.041E-03  7.099E-03 -5.380E-10 -3.322E-11
 55.00   0.00  0.52029  6.5453E-03 -3.4055E-03 -3.405E-03  6.545E-03 -2.797E-10 -3.065E-10
 60.00   0.00  0.61712  6.0123E-03 -3.7103E-03 -3.710E-03  6.012E-03  4.352E-10  3.325E-12
 65.00   0.00  0.71483  5.5133E-03 -3.9411E-03 -3.941E-03  5.513E-03 -8.104E-12 -2.699E-10
 70.00   0.00  0.80781  5.0594E-03 -4.0870E-03 -4.087E-03  5.059E-03  9.785E-11 -2.693E-11
 75.00   0.00  0.88915  4.6584E-03 -4.1420E-03 -4.142E-03  4.658E-03  1.229E-10 -3.718E-11
 80.00   0.00  0.95150  4.3147E-03 -4.1054E-03 -4.105E-03  4.315E-03 -1.107E-10 -2.754E-10
 85.00   0.00  0.98836  4.0286E-03 -3.9818E-03 -3.982E-03  4.029E-03  1.628E-10 -1.817E-11
 90.00   0.00  0.99557  3.7971E-03 -3.7803E-03 -3.780E-03  3.797E-03 -4.450E-11 -6.597E-11
 95.00   0.00  0.97238  3.6141E-03 -3.5143E-03 -3.514E-03  3.614E-03 -4.191E-10 -3.346E-10
100.00   0.00  0.92166  3.4715E-03 -3.1996E-03 -3.200E-03  3.472E-03 -6.179E-11  2.372E-11
105.00   0.00  0.84910  3.3601E-03 -2.8531E-03 -2.853E-03  3.360E-03  3.277E-10  3.544E-12
110.00   0.00  0.76183  3.2708E-03 -2.4918E-03 -2.492E-03  3.271E-03  2.720E-10 -1.520E-10
115.00   0.00  0.66701  3.1950E-03 -2.1311E-03 -2.131E-03  3.195E-03  1.281E-10 -2.123E-11
120.00   0.00  0.57075  3.1260E-03 -1.7842E-03 -1.784E-03  3.126E-03  1.835E-10  6.026E-11
125.00   0.00  0.47773  3.0587E-03 -1.4613E-03 -1.461E-03  3.059E-03  1.706E-10 -2.720E-11
130.00   0.00  0.39108  2.9902E-03 -1.1694E-03 -1.169E-03  2.990E-03  3.539E-11 -1.905E-11
135.00   0.00  0.31267  2.9194E-03 -9.1280E-04 -9.128E-04  2.919E-03 -2.407E-12  2.576E-11
140.00   0.00  0.24338  2.8467E-03 -6.9284E-04 -6.928E-04  2.847E-03  1.745E-10 -1.738E-10
145.00   0.00  0.18347  2.7739E-03 -5.0892E-04 -5.089E-04  2.774E-03  9.622E-11  2.877E-11
150.00   0.00  0.13278  2.7031E-03 -3.5892E-04 -3.589E-04  2.703E-03  1.743E-10 -2.409E-10
155.00   0.00  0.09094  2.6373E-03 -2.3984E-04 -2.398E-04  2.637E-03  6.193E-11  7.120E-11
160.00   0.00  0.05751  2.5792E-03 -1.4832E-04 -1.483E-04  2.579E-03  1.767E-10 -7.337E-11
165.00   0.00  0.03203  2.5312E-03 -8.1081E-05 -8.108E-05  2.531E-03  1.108E-10 -5.121E-11
170.00   0.00  0.01413  2.4953E-03 -3.5267E-05 -3.527E-05  2.495E-03  1.230E-10 -1.437E-11
175.00   0.00  0.00352  2.4732E-03 -8.6977E-06 -8.698E-06  2.473E-03  7.130E-11 -1.790E-12
180.00   0.00  0.00000  2.4657E-03 -5.8208E-10 -5.821E-10  2.466E-03  1.117E-10 -1.159E-11
