 DDSCAT --- DDSCAT 7.2.2 [12.06.05]   
 TARGET --- Cyl.prism, NAT=   1320 NFAC=  52 NLAY=  20 asp.ratio= 2.4580      
 PBCGS2 --- method of solution 
 GKDLDR --- prescription for polarizabilies
 CYLNDRCAP --- shape 
    1320     = NAT0 = number of dipoles
  0.14695066 = d/aeff for this target [d=dipole spacing]
    0.004940 = d (physical units)
  AEFF=      0.033616 = effective radius (physical units)
  WAVE=      0.450000 = wavelength (in vacuo, physical units)
K*AEFF=      0.469368 = 2*pi*aeff/lambda
NAMBIENT=    1.000000 = refractive index of ambient medium
n= ( 1.5087 ,  1.8787),  eps.= ( -1.2533 ,  5.6686)  |m|kd=  0.1662 for subs. 1
   TOL= 1.000E-05 = error tolerance for CCG method
( 1.00000  0.00000  0.00000) = target axis A1 in Target Frame
( 0.00000  1.00000  0.00000) = target axis A2 in Target Frame
  NAVG=   285 = (theta,phi) values used in comp. of Qsca,g
( 0.06897  0.00000  0.00000) = k vector (latt. units) in Lab Frame
( 0.00000, 0.00000)( 1.00000, 0.00000)( 0.00000, 0.00000)=inc.pol.vec. 1 in LF
( 0.00000, 0.00000)(-0.00000, 0.00000)( 1.00000,-0.00000)=inc.pol.vec. 2 in LF
   0.000   0.000 = beta_min, beta_max ;  NBETA = 1
   0.000   0.000 = theta_min, theta_max; NTHETA= 1
   0.000   0.000 = phi_min, phi_max   ;   NPHI = 1

 0.5000 = ETASCA = param. controlling # of scatt. dirs used to calculate <cos> etc.
 Results averaged over    1 target orientations
                   and    2 incident polarizations
          Qext       Qabs       Qsca      g(1)=<cos>  <cos^2>     Qbk       Qpha
 JO=1:  8.3501E-01 7.6686E-01 6.8154E-02  2.2246E-01 3.8760E-01 3.1873E-03  7.0334E-01
 JO=2:  8.3501E-01 7.6686E-01 6.8154E-02  2.2246E-01 3.8760E-01 3.1873E-03  7.0334E-01
 mean:  8.3501E-01 7.6686E-01 6.8154E-02  2.2246E-01 3.8760E-01 3.1873E-03  7.0334E-01
 Qpol= -6.5565E-07                                                  dQpha= -5.9605E-08
         Qsca*g(1)   Qsca*g(2)   Qsca*g(3)   iter  mxiter  Nsca
 JO=1:  1.5161E-02  9.6161E-10  5.5187E-09      9   1200    285
 JO=2:  1.5161E-02  2.4916E-09  2.2547E-09      9   1200    285
 mean:  1.5161E-02  1.7266E-09  3.8867E-09
            Mueller matrix elements for selected scattering directions in Lab Frame   
 theta    phi    Pol.    S_11        S_12        S_21       S_22       S_31       S_41
  0.00   0.00  0.00000  8.1174E-03 -2.3283E-09 -2.328E-09  8.117E-03  9.671E-12 -2.783E-11
  5.00   0.00  0.00393  8.0844E-03 -3.1745E-05 -3.174E-05  8.084E-03 -5.336E-11  4.083E-11
 10.00   0.00  0.01577  7.9864E-03 -1.2591E-04 -1.259E-04  7.986E-03 -3.413E-11 -6.959E-12
 15.00   0.00  0.03570  7.8253E-03 -2.7933E-04 -2.793E-04  7.825E-03 -8.579E-12 -4.084E-12
 20.00   0.00  0.06400  7.6048E-03 -4.8669E-04 -4.867E-04  7.605E-03  8.178E-11 -4.183E-11
 25.00   0.00  0.10104  7.3300E-03 -7.4060E-04 -7.406E-04  7.330E-03  1.546E-11 -1.431E-10
 30.00   0.00  0.14721  7.0075E-03 -1.0316E-03 -1.032E-03  7.008E-03 -2.223E-10 -8.637E-11
 35.00   0.00  0.20290  6.6457E-03 -1.3484E-03 -1.348E-03  6.646E-03  1.869E-10 -1.694E-11
 40.00   0.00  0.26831  6.2540E-03 -1.6780E-03 -1.678E-03  6.254E-03 -2.237E-11 -6.510E-11
 45.00   0.00  0.34338  5.8434E-03 -2.0065E-03 -2.007E-03  5.843E-03  3.100E-11 -1.637E-10
 50.00   0.00  0.42750  5.4254E-03 -2.3194E-03 -2.319E-03  5.425E-03 -9.877E-11 -1.516E-11
 55.00   0.00  0.51922  5.0119E-03 -2.6023E-03 -2.602E-03  5.012E-03  5.180E-11 -2.313E-10
 60.00   0.00  0.61596  4.6142E-03 -2.8421E-03 -2.842E-03  4.614E-03 -3.471E-11  8.305E-11
 65.00   0.00  0.71367  4.2425E-03 -3.0277E-03 -3.028E-03  4.242E-03  5.023E-11 -1.541E-10
 70.00   0.00  0.80678  3.9053E-03 -3.1507E-03 -3.151E-03  3.905E-03  7.084E-11 -6.569E-11
 75.00   0.00  0.88843  3.6086E-03 -3.2060E-03 -3.206E-03  3.609E-03 -1.070E-10  4.273E-11
 80.00   0.00  0.95131  3.3559E-03 -3.1925E-03 -3.193E-03  3.356E-03  4.697E-11 -1.257E-10
 85.00   0.00  0.98887  3.1478E-03 -3.1128E-03 -3.113E-03  3.148E-03  1.084E-11 -8.584E-11
 90.00   0.00  0.99691  2.9823E-03 -2.9730E-03 -2.973E-03  2.982E-03  9.942E-11 -1.251E-10
 95.00   0.00  0.97455  2.8549E-03 -2.7823E-03 -2.782E-03  2.855E-03 -1.432E-11 -3.968E-11
100.00   0.00  0.92458  2.7598E-03 -2.5517E-03 -2.552E-03  2.760E-03 -2.239E-10 -4.081E-11
105.00   0.00  0.85258  2.6902E-03 -2.2936E-03 -2.294E-03  2.690E-03  1.687E-10 -6.655E-11
110.00   0.00  0.76566  2.6388E-03 -2.0205E-03 -2.020E-03  2.639E-03 -1.288E-11 -1.252E-10
115.00   0.00  0.67095  2.5992E-03 -1.7439E-03 -1.744E-03  2.599E-03 -1.052E-10 -1.723E-10
120.00   0.00  0.57461  2.5657E-03 -1.4743E-03 -1.474E-03  2.566E-03 -1.222E-10  5.262E-11
125.00   0.00  0.48133  2.5340E-03 -1.2197E-03 -1.220E-03  2.534E-03  9.213E-11 -9.368E-11
130.00   0.00  0.39433  2.5012E-03 -9.8628E-04 -9.863E-04  2.501E-03  6.576E-11 -1.278E-10
135.00   0.00  0.31548  2.4659E-03 -7.7796E-04 -7.780E-04  2.466E-03 -6.486E-11  6.031E-12
140.00   0.00  0.24574  2.4281E-03 -5.9666E-04 -5.967E-04  2.428E-03  1.073E-11 -4.372E-12
145.00   0.00  0.18536  2.3884E-03 -4.4272E-04 -4.427E-04  2.388E-03 -1.961E-11 -1.504E-10
150.00   0.00  0.13422  2.3485E-03 -3.1523E-04 -3.152E-04  2.349E-03  8.485E-12 -2.414E-11
155.00   0.00  0.09198  2.3103E-03 -2.1249E-04 -2.125E-04  2.310E-03 -6.321E-11 -2.920E-11
160.00   0.00  0.05819  2.2756E-03 -1.3241E-04 -1.324E-04  2.276E-03  2.953E-11 -3.103E-11
165.00   0.00  0.03243  2.2464E-03 -7.2845E-05 -7.284E-05  2.246E-03 -1.550E-11 -2.517E-11
170.00   0.00  0.01431  2.2244E-03 -3.1837E-05 -3.184E-05  2.224E-03 -1.434E-11 -9.918E-12
175.00   0.00  0.00356  2.2106E-03 -7.8750E-06 -7.875E-06  2.211E-03  9.563E-12 -1.376E-11
180.00   0.00  0.00000  2.2060E-03  1.8626E-09  1.863E-09  2.206E-03 -3.734E-12 -1.094E-11
