 DDSCAT --- DDSCAT 7.2.2 [12.06.05]   
 TARGET --- Cyl.prism, NAT=   1320 NFAC=  52 NLAY=  20 asp.ratio= 2.4580      
 PBCGS2 --- method of solution 
 GKDLDR --- prescription for polarizabilies
 CYLNDRCAP --- shape 
    1320     = NAT0 = number of dipoles
  0.14695066 = d/aeff for this target [d=dipole spacing]
    0.004940 = d (physical units)
  AEFF=      0.033616 = effective radius (physical units)
  WAVE=      0.535714 = wavelength (in vacuo, physical units)
K*AEFF=      0.394269 = 2*pi*aeff/lambda
NAMBIENT=    1.000000 = refractive index of ambient medium
n= ( 0.4253 ,  2.4780),  eps.= ( -5.9597 ,  2.1077)  |m|kd=  0.1457 for subs. 1
   TOL= 1.000E-05 = error tolerance for CCG method
( 1.00000  0.00000  0.00000) = target axis A1 in Target Frame
( 0.00000  1.00000  0.00000) = target axis A2 in Target Frame
  NAVG=   248 = (theta,phi) values used in comp. of Qsca,g
( 0.05794  0.00000  0.00000) = k vector (latt. units) in Lab Frame
( 0.00000, 0.00000)( 1.00000, 0.00000)( 0.00000, 0.00000)=inc.pol.vec. 1 in LF
( 0.00000, 0.00000)(-0.00000, 0.00000)( 1.00000,-0.00000)=inc.pol.vec. 2 in LF
   0.000   0.000 = beta_min, beta_max ;  NBETA = 1
   0.000   0.000 = theta_min, theta_max; NTHETA= 1
   0.000   0.000 = phi_min, phi_max   ;   NPHI = 1

 0.5000 = ETASCA = param. controlling # of scatt. dirs used to calculate <cos> etc.
 Results averaged over    1 target orientations
                   and    2 incident polarizations
          Qext       Qabs       Qsca      g(1)=<cos>  <cos^2>     Qbk       Qpha
 JO=1:  4.7167E-01 4.0201E-01 6.9658E-02  1.5320E-01 3.8748E-01 4.4822E-03  9.0173E-01
 JO=2:  4.7166E-01 4.0201E-01 6.9656E-02  1.5321E-01 3.8748E-01 4.4822E-03  9.0173E-01
 mean:  4.7167E-01 4.0201E-01 6.9657E-02  1.5321E-01 3.8748E-01 4.4822E-03  9.0173E-01
 Qpol=  1.5199E-06                                                  dQpha=  6.5565E-07
         Qsca*g(1)   Qsca*g(2)   Qsca*g(3)   iter  mxiter  Nsca
 JO=1:  1.0672E-02 -2.7966E-10  1.7248E-09     34   1200    248
 JO=2:  1.0672E-02  5.3932E-09 -1.2158E-10     34   1200    248
 mean:  1.0672E-02  2.5568E-09  8.0160E-10
            Mueller matrix elements for selected scattering directions in Lab Frame   
 theta    phi    Pol.    S_11        S_12        S_21       S_22       S_31       S_41
  0.00   0.00  0.00000  5.2481E-03  4.8894E-09  4.889E-09  5.248E-03  5.240E-11 -2.502E-11
  5.00   0.00  0.00404  5.2270E-03 -2.1133E-05 -2.113E-05  5.227E-03  3.725E-11 -3.202E-12
 10.00   0.00  0.01624  5.1644E-03 -8.3851E-05 -8.385E-05  5.164E-03  7.601E-11 -1.365E-10
 15.00   0.00  0.03676  5.0618E-03 -1.8609E-04 -1.861E-04  5.062E-03  5.638E-11  2.137E-11
 20.00   0.00  0.06591  4.9217E-03 -3.2439E-04 -3.244E-04  4.922E-03  4.057E-11  5.593E-11
 25.00   0.00  0.10404  4.7478E-03 -4.9397E-04 -4.940E-04  4.748E-03  1.836E-11 -7.025E-11
 30.00   0.00  0.15156  4.5446E-03 -6.8880E-04 -6.888E-04  4.545E-03  1.158E-10 -2.870E-11
 35.00   0.00  0.20883  4.3178E-03 -9.0169E-04 -9.017E-04  4.318E-03  1.602E-10 -3.310E-11
 40.00   0.00  0.27603  4.0737E-03 -1.1245E-03 -1.124E-03  4.074E-03  5.914E-11  2.355E-10
 45.00   0.00  0.35301  3.8195E-03 -1.3483E-03 -1.348E-03  3.820E-03  3.941E-11  1.305E-10
 50.00   0.00  0.43904  3.5627E-03 -1.5641E-03 -1.564E-03  3.563E-03  1.528E-10  1.117E-10
 55.00   0.00  0.53248  3.3106E-03 -1.7628E-03 -1.763E-03  3.311E-03  9.549E-11  1.748E-10
 60.00   0.00  0.63048  3.0706E-03 -1.9360E-03 -1.936E-03  3.071E-03  7.873E-11  3.941E-10
 65.00   0.00  0.72870  2.8492E-03 -2.0762E-03 -2.076E-03  2.849E-03 -5.564E-12  6.706E-10
 70.00   0.00  0.82124  2.6516E-03 -2.1776E-03 -2.178E-03  2.652E-03  1.576E-10 -1.158E-10
 75.00   0.00  0.90103  2.4820E-03 -2.2364E-03 -2.236E-03  2.482E-03  1.519E-10 -7.525E-11
 80.00   0.00  0.96076  2.3427E-03 -2.2507E-03 -2.251E-03  2.343E-03  9.444E-11  1.624E-10
 85.00   0.00  0.99416  2.2342E-03 -2.2211E-03 -2.221E-03  2.234E-03  7.016E-11  1.131E-10
 90.00   0.00  0.99755  2.1555E-03 -2.1502E-03 -2.150E-03  2.155E-03  8.045E-11  1.375E-10
 95.00   0.00  0.97076  2.1040E-03 -2.0425E-03 -2.043E-03  2.104E-03  9.680E-11 -3.726E-11
100.00   0.00  0.91713  2.0762E-03 -1.9041E-03 -1.904E-03  2.076E-03 -2.414E-11  4.192E-10
105.00   0.00  0.84264  2.0674E-03 -1.7420E-03 -1.742E-03  2.067E-03  1.633E-10 -2.127E-10
110.00   0.00  0.75446  2.0729E-03 -1.5639E-03 -1.564E-03  2.073E-03  8.431E-12  3.797E-10
115.00   0.00  0.65959  2.0879E-03 -1.3771E-03 -1.377E-03  2.088E-03  5.538E-11  2.318E-10
120.00   0.00  0.56390  2.1081E-03 -1.1887E-03 -1.189E-03  2.108E-03  7.487E-11  3.461E-11
125.00   0.00  0.47180  2.1298E-03 -1.0049E-03 -1.005E-03  2.130E-03  1.649E-12  1.957E-10
130.00   0.00  0.38622  2.1503E-03 -8.3051E-04 -8.305E-04  2.150E-03  1.074E-10 -1.599E-10
135.00   0.00  0.30888  2.1677E-03 -6.6955E-04 -6.696E-04  2.168E-03  5.562E-11  1.072E-10
140.00   0.00  0.24056  2.1809E-03 -5.2464E-04 -5.246E-04  2.181E-03  5.088E-11 -6.356E-11
145.00   0.00  0.18146  2.1898E-03 -3.9736E-04 -3.974E-04  2.190E-03  5.454E-11  1.959E-11
150.00   0.00  0.13142  2.1946E-03 -2.8842E-04 -2.884E-04  2.195E-03  3.573E-11  1.091E-10
155.00   0.00  0.09008  2.1961E-03 -1.9783E-04 -1.978E-04  2.196E-03  7.322E-12  1.566E-10
160.00   0.00  0.05700  2.1953E-03 -1.2514E-04 -1.251E-04  2.195E-03  3.167E-11 -4.071E-11
165.00   0.00  0.03177  2.1934E-03 -6.9687E-05 -6.969E-05  2.193E-03  8.467E-12  2.678E-11
170.00   0.00  0.01403  2.1912E-03 -3.0733E-05 -3.073E-05  2.191E-03  3.057E-12  8.001E-11
175.00   0.00  0.00349  2.1895E-03 -7.6459E-06 -7.646E-06  2.190E-03  2.683E-11 -2.173E-12
180.00   0.00  0.00000  2.1889E-03  6.9849E-10  6.985E-10  2.189E-03  6.630E-12  5.656E-11
