 DDSCAT --- DDSCAT 7.2.2 [12.06.05]   
 TARGET --- Cyl.prism, NAT=   1320 NFAC=  52 NLAY=  20 asp.ratio= 2.4580      
 PBCGS2 --- method of solution 
 GKDLDR --- prescription for polarizabilies
 CYLNDRCAP --- shape 
    1320     = NAT0 = number of dipoles
  0.14695066 = d/aeff for this target [d=dipole spacing]
    0.004940 = d (physical units)
  AEFF=      0.033616 = effective radius (physical units)
  WAVE=      0.578571 = wavelength (in vacuo, physical units)
K*AEFF=      0.365064 = 2*pi*aeff/lambda
NAMBIENT=    1.000000 = refractive index of ambient medium
n= ( 0.2629 ,  2.9383),  eps.= ( -8.5642 ,  1.5448)  |m|kd=  0.1583 for subs. 1
   TOL= 1.000E-05 = error tolerance for CCG method
( 1.00000  0.00000  0.00000) = target axis A1 in Target Frame
( 0.00000  1.00000  0.00000) = target axis A2 in Target Frame
  NAVG=   248 = (theta,phi) values used in comp. of Qsca,g
( 0.05365  0.00000  0.00000) = k vector (latt. units) in Lab Frame
( 0.00000, 0.00000)( 1.00000, 0.00000)( 0.00000, 0.00000)=inc.pol.vec. 1 in LF
( 0.00000, 0.00000)(-0.00000, 0.00000)( 1.00000,-0.00000)=inc.pol.vec. 2 in LF
   0.000   0.000 = beta_min, beta_max ;  NBETA = 1
   0.000   0.000 = theta_min, theta_max; NTHETA= 1
   0.000   0.000 = phi_min, phi_max   ;   NPHI = 1

 0.5000 = ETASCA = param. controlling # of scatt. dirs used to calculate <cos> etc.
 Results averaged over    1 target orientations
                   and    2 incident polarizations
          Qext       Qabs       Qsca      g(1)=<cos>  <cos^2>     Qbk       Qpha
 JO=1:  2.5283E-01 2.0828E-01 4.4550E-02  1.2112E-01 3.8833E-01 3.2674E-03  7.7388E-01
 JO=2:  2.5283E-01 2.0828E-01 4.4551E-02  1.2112E-01 3.8833E-01 3.2674E-03  7.7388E-01
 mean:  2.5283E-01 2.0828E-01 4.4551E-02  1.2112E-01 3.8833E-01 3.2674E-03  7.7388E-01
 Qpol= -4.4703E-07                                                  dQpha= -8.9407E-07
         Qsca*g(1)   Qsca*g(2)   Qsca*g(3)   iter  mxiter  Nsca
 JO=1:  5.3958E-03  2.2758E-11 -1.9855E-09     72   1200    248
 JO=2:  5.3958E-03  1.1477E-09  7.0209E-11     74   1200    248
 mean:  5.3958E-03  5.8520E-10 -9.5765E-10
            Mueller matrix elements for selected scattering directions in Lab Frame   
 theta    phi    Pol.    S_11        S_12        S_21       S_22       S_31       S_41
  0.00   0.00  0.00000  2.7302E-03 -3.1432E-09 -3.143E-09  2.730E-03 -9.456E-13 -4.551E-11
  5.00   0.00  0.00407  2.7194E-03 -1.1081E-05 -1.108E-05  2.719E-03 -9.263E-12 -3.283E-11
 10.00   0.00  0.01636  2.6871E-03 -4.3958E-05 -4.396E-05  2.687E-03 -3.524E-12  2.614E-11
 15.00   0.00  0.03704  2.6342E-03 -9.7569E-05 -9.757E-05  2.634E-03 -2.882E-11  2.059E-10
 20.00   0.00  0.06641  2.5621E-03 -1.7015E-04 -1.701E-04  2.562E-03  4.471E-11 -9.469E-11
 25.00   0.00  0.10484  2.4728E-03 -2.5924E-04 -2.592E-04  2.473E-03 -3.445E-11  5.120E-11
 30.00   0.00  0.15273  2.3685E-03 -3.6175E-04 -3.618E-04  2.369E-03  6.167E-12 -9.343E-11
 35.00   0.00  0.21045  2.2524E-03 -4.7401E-04 -4.740E-04  2.252E-03 -3.113E-12 -1.986E-11
 40.00   0.00  0.27817  2.1277E-03 -5.9186E-04 -5.919E-04  2.128E-03 -3.526E-11  1.431E-11
 45.00   0.00  0.35573  1.9981E-03 -7.1079E-04 -7.108E-04  1.998E-03  7.466E-12 -3.547E-10
 50.00   0.00  0.44236  1.8676E-03 -8.2614E-04 -8.261E-04  1.868E-03 -4.211E-11  1.463E-10
 55.00   0.00  0.53636  1.7400E-03 -9.3325E-04 -9.332E-04  1.740E-03  1.095E-11 -1.276E-10
 60.00   0.00  0.63480  1.6190E-03 -1.0278E-03 -1.028E-03  1.619E-03 -3.996E-11  1.445E-10
 65.00   0.00  0.73320  1.5082E-03 -1.1058E-03 -1.106E-03  1.508E-03 -5.478E-11  2.175E-10
 70.00   0.00  0.82557  1.4102E-03 -1.1643E-03 -1.164E-03  1.410E-03 -1.843E-11 -3.884E-11
 75.00   0.00  0.90474  1.3273E-03 -1.2009E-03 -1.201E-03  1.327E-03 -1.654E-11 -1.719E-12
 80.00   0.00  0.96335  1.2608E-03 -1.2146E-03 -1.215E-03  1.261E-03 -5.020E-11  1.995E-10
 85.00   0.00  0.99523  1.2110E-03 -1.2052E-03 -1.205E-03  1.211E-03 -2.223E-11  3.952E-11
 90.00   0.00  0.99689  1.1775E-03 -1.1738E-03 -1.174E-03  1.178E-03 -9.138E-12 -9.937E-11
 95.00   0.00  0.96837  1.1592E-03 -1.1225E-03 -1.123E-03  1.159E-03  3.476E-11 -1.958E-10
100.00   0.00  0.91328  1.1541E-03 -1.0540E-03 -1.054E-03  1.154E-03 -1.864E-11  3.403E-12
105.00   0.00  0.83776  1.1600E-03 -9.7177E-04 -9.718E-04  1.160E-03 -5.746E-11 -3.992E-12
110.00   0.00  0.74902  1.1742E-03 -8.7953E-04 -8.795E-04  1.174E-03  3.568E-11 -3.770E-11
115.00   0.00  0.65402  1.1944E-03 -7.8113E-04 -7.811E-04  1.194E-03 -4.781E-11 -1.197E-10
120.00   0.00  0.55857  1.2178E-03 -6.8024E-04 -6.802E-04  1.218E-03 -1.364E-11  1.205E-10
125.00   0.00  0.46696  1.2425E-03 -5.8021E-04 -5.802E-04  1.243E-03 -7.828E-11  1.957E-10
130.00   0.00  0.38201  1.2667E-03 -4.8389E-04 -4.839E-04  1.267E-03 -4.913E-11  2.875E-10
135.00   0.00  0.30535  1.2891E-03 -3.9361E-04 -3.936E-04  1.289E-03 -2.394E-11  7.481E-11
140.00   0.00  0.23772  1.3087E-03 -3.1111E-04 -3.111E-04  1.309E-03 -5.612E-11  5.334E-11
145.00   0.00  0.17927  1.3253E-03 -2.3758E-04 -2.376E-04  1.325E-03 -3.354E-11  5.426E-11
150.00   0.00  0.12980  1.3387E-03 -1.7377E-04 -1.738E-04  1.339E-03 -2.902E-11 -7.454E-11
155.00   0.00  0.08896  1.3490E-03 -1.2000E-04 -1.200E-04  1.349E-03 -5.703E-12  5.560E-11
160.00   0.00  0.05629  1.3566E-03 -7.6360E-05 -7.636E-05  1.357E-03 -2.004E-11 -2.707E-11
165.00   0.00  0.03137  1.3620E-03 -4.2725E-05 -4.272E-05  1.362E-03  2.675E-12 -1.153E-11
170.00   0.00  0.01385  1.3655E-03 -1.8909E-05 -1.891E-05  1.365E-03 -4.091E-11 -7.605E-13
175.00   0.00  0.00345  1.3674E-03 -4.7146E-06 -4.715E-06  1.367E-03 -2.753E-11 -1.350E-11
180.00   0.00  0.00000  1.3680E-03  4.6566E-10  4.657E-10  1.368E-03 -7.928E-12  1.548E-11
