 DDSCAT --- DDSCAT 7.2.2 [12.06.05]   
 TARGET --- Cyl.prism, NAT=   1320 NFAC=  52 NLAY=  20 asp.ratio= 2.4580      
 PBCGS2 --- method of solution 
 GKDLDR --- prescription for polarizabilies
 CYLNDRCAP --- shape 
    1320     = NAT0 = number of dipoles
  0.14695066 = d/aeff for this target [d=dipole spacing]
    0.004940 = d (physical units)
  AEFF=      0.033616 = effective radius (physical units)
  WAVE=      0.300000 = wavelength (in vacuo, physical units)
K*AEFF=      0.704052 = 2*pi*aeff/lambda
NAMBIENT=    1.000000 = refractive index of ambient medium
n= ( 1.8011 ,  1.9205),  eps.= ( -0.4442 ,  6.9182)  |m|kd=  0.2724 for subs. 1
   TOL= 1.000E-05 = error tolerance for CCG method
( 1.00000  0.00000  0.00000) = target axis A1 in Target Frame
( 0.00000  1.00000  0.00000) = target axis A2 in Target Frame
  NAVG=   323 = (theta,phi) values used in comp. of Qsca,g
( 0.10346  0.00000  0.00000) = k vector (latt. units) in Lab Frame
( 0.00000, 0.00000)( 1.00000, 0.00000)( 0.00000, 0.00000)=inc.pol.vec. 1 in LF
( 0.00000, 0.00000)(-0.00000, 0.00000)( 1.00000,-0.00000)=inc.pol.vec. 2 in LF
   0.000   0.000 = beta_min, beta_max ;  NBETA = 1
   0.000   0.000 = theta_min, theta_max; NTHETA= 1
   0.000   0.000 = phi_min, phi_max   ;   NPHI = 1

 0.5000 = ETASCA = param. controlling # of scatt. dirs used to calculate <cos> etc.
 Results averaged over    1 target orientations
                   and    2 incident polarizations
          Qext       Qabs       Qsca      g(1)=<cos>  <cos^2>     Qbk       Qpha
 JO=1:  1.4240E+00 1.1893E+00 2.3466E-01  4.6386E-01 4.0988E-01 6.0107E-04  9.7910E-01
 JO=2:  1.4240E+00 1.1893E+00 2.3466E-01  4.6386E-01 4.0988E-01 6.0106E-04  9.7910E-01
 mean:  1.4240E+00 1.1893E+00 2.3466E-01  4.6386E-01 4.0988E-01 6.0106E-04  9.7910E-01
 Qpol= -4.7684E-07                                                  dQpha= -1.0729E-06
         Qsca*g(1)   Qsca*g(2)   Qsca*g(3)   iter  mxiter  Nsca
 JO=1:  1.0885E-01  9.3044E-09  4.6065E-09      8   1200    323
 JO=2:  1.0885E-01  1.6721E-08  4.3087E-09      9   1200    323
 mean:  1.0885E-01  1.3013E-08  4.4576E-09
            Mueller matrix elements for selected scattering directions in Lab Frame   
 theta    phi    Pol.    S_11        S_12        S_21       S_22       S_31       S_41
  0.00   0.00  0.00000  9.0024E-02 -7.0781E-08 -7.078E-08  9.002E-02  1.083E-09  7.317E-10
  5.00   0.00  0.00401  8.9623E-02 -3.5964E-04 -3.596E-04  8.962E-02  1.418E-09  3.691E-10
 10.00   0.00  0.01611  8.8425E-02 -1.4246E-03 -1.425E-03  8.842E-02  7.932E-10 -1.298E-09
 15.00   0.00  0.03648  8.6445E-02 -3.1536E-03 -3.154E-03  8.644E-02  4.277E-10  2.140E-09
 20.00   0.00  0.06542  8.3712E-02 -5.4763E-03 -5.476E-03  8.371E-02  1.099E-09 -1.329E-09
 25.00   0.00  0.10330  8.0271E-02 -8.2918E-03 -8.292E-03  8.027E-02  4.098E-09 -2.569E-09
 30.00   0.00  0.15053  7.6188E-02 -1.1469E-02 -1.147E-02  7.619E-02  4.038E-09  5.558E-09
 35.00   0.00  0.20748  7.1555E-02 -1.4846E-02 -1.485E-02  7.155E-02 -1.366E-09 -1.620E-09
 40.00   0.00  0.27436  6.6485E-02 -1.8240E-02 -1.824E-02  6.648E-02  8.951E-10  3.633E-09
 45.00   0.00  0.35101  6.1115E-02 -2.1452E-02 -2.145E-02  6.111E-02  2.723E-09 -3.934E-09
 50.00   0.00  0.43669  5.5596E-02 -2.4278E-02 -2.428E-02  5.560E-02 -1.580E-09  3.248E-09
 55.00   0.00  0.52972  5.0088E-02 -2.6533E-02 -2.653E-02  5.009E-02  9.731E-10  3.719E-10
 60.00   0.00  0.62716  4.4742E-02 -2.8060E-02 -2.806E-02  4.474E-02 -2.968E-09  1.458E-09
 65.00   0.00  0.72448  3.9690E-02 -2.8755E-02 -2.875E-02  3.969E-02 -4.684E-09  5.599E-09
 70.00   0.00  0.81556  3.5034E-02 -2.8572E-02 -2.857E-02  3.503E-02 -4.404E-09  3.184E-09
 75.00   0.00  0.89304  3.0835E-02 -2.7537E-02 -2.754E-02  3.084E-02  2.426E-09 -6.520E-09
 80.00   0.00  0.94932  2.7116E-02 -2.5742E-02 -2.574E-02  2.712E-02 -2.188E-09  4.995E-09
 85.00   0.00  0.97808  2.3857E-02 -2.3334E-02 -2.333E-02  2.386E-02  1.055E-09  1.142E-09
 90.00   0.00  0.97578  2.1011E-02 -2.0502E-02 -2.050E-02  2.101E-02 -9.881E-11  2.452E-09
 95.00   0.00  0.94268  1.8512E-02 -1.7451E-02 -1.745E-02  1.851E-02  1.024E-09 -3.903E-10
100.00   0.00  0.88275  1.6288E-02 -1.4378E-02 -1.438E-02  1.629E-02 -2.271E-09 -1.066E-09
105.00   0.00  0.80261  1.4275E-02 -1.1457E-02 -1.146E-02  1.428E-02  4.081E-10  4.620E-10
110.00   0.00  0.70992  1.2424E-02 -8.8204E-03 -8.820E-03  1.242E-02  1.209E-09 -1.785E-10
115.00   0.00  0.61195  1.0706E-02 -6.5518E-03 -6.552E-03  1.071E-02 -5.130E-10  2.977E-10
120.00   0.00  0.51469  9.1094E-03 -4.6885E-03 -4.689E-03  9.109E-03  8.282E-10 -1.946E-09
125.00   0.00  0.42247  7.6369E-03 -3.2263E-03 -3.226E-03  7.637E-03  5.547E-10 -1.545E-09
130.00   0.00  0.33810  6.3006E-03 -2.1303E-03 -2.130E-03  6.301E-03  1.077E-10  1.107E-09
135.00   0.00  0.26317  5.1145E-03 -1.3460E-03 -1.346E-03  5.114E-03 -1.892E-10  1.006E-09
140.00   0.00  0.19838  4.0893E-03 -8.1121E-04 -8.112E-04  4.089E-03  1.904E-11  6.188E-11
145.00   0.00  0.14383  3.2293E-03 -4.6446E-04 -4.645E-04  3.229E-03  1.098E-10 -3.737E-10
150.00   0.00  0.09929  2.5311E-03 -2.5131E-04 -2.513E-04  2.531E-03  3.011E-10  1.831E-10
155.00   0.00  0.06427  1.9840E-03 -1.2752E-04 -1.275E-04  1.984E-03  1.062E-10 -7.114E-11
160.00   0.00  0.03808  1.5723E-03 -5.9876E-05 -5.988E-05  1.572E-03  9.548E-11 -1.007E-10
165.00   0.00  0.01977  1.2777E-03 -2.5265E-05 -2.527E-05  1.278E-03  4.826E-11  2.788E-11
170.00   0.00  0.00816  1.0825E-03 -8.8323E-06 -8.832E-06  1.082E-03  6.535E-11 -2.289E-11
175.00   0.00  0.00193  9.7177E-04 -1.8726E-06 -1.873E-06  9.718E-04  4.824E-11  1.636E-11
180.00   0.00  0.00001  9.3601E-04  6.1991E-09  6.199E-09  9.360E-04  2.792E-11  4.092E-11
