 DDSCAT --- DDSCAT 7.2.2 [12.06.05]   
 TARGET --- Cyl.prism, NAT=   1320 NFAC=  52 NLAY=  20 asp.ratio= 2.4580      
 PBCGS2 --- method of solution 
 GKDLDR --- prescription for polarizabilies
 CYLNDRCAP --- shape 
    1320     = NAT0 = number of dipoles
  0.14695066 = d/aeff for this target [d=dipole spacing]
    0.004940 = d (physical units)
  AEFF=      0.033616 = effective radius (physical units)
  WAVE=      0.321429 = wavelength (in vacuo, physical units)
K*AEFF=      0.657115 = 2*pi*aeff/lambda
NAMBIENT=    1.000000 = refractive index of ambient medium
n= ( 1.8353 ,  1.8932),  eps.= ( -0.2158 ,  6.9490)  |m|kd=  0.2546 for subs. 1
   TOL= 1.000E-05 = error tolerance for CCG method
( 1.00000  0.00000  0.00000) = target axis A1 in Target Frame
( 0.00000  1.00000  0.00000) = target axis A2 in Target Frame
  NAVG=   324 = (theta,phi) values used in comp. of Qsca,g
( 0.09656  0.00000  0.00000) = k vector (latt. units) in Lab Frame
( 0.00000, 0.00000)( 1.00000, 0.00000)( 0.00000, 0.00000)=inc.pol.vec. 1 in LF
( 0.00000, 0.00000)(-0.00000, 0.00000)( 1.00000,-0.00000)=inc.pol.vec. 2 in LF
   0.000   0.000 = beta_min, beta_max ;  NBETA = 1
   0.000   0.000 = theta_min, theta_max; NTHETA= 1
   0.000   0.000 = phi_min, phi_max   ;   NPHI = 1

 0.5000 = ETASCA = param. controlling # of scatt. dirs used to calculate <cos> etc.
 Results averaged over    1 target orientations
                   and    2 incident polarizations
          Qext       Qabs       Qsca      g(1)=<cos>  <cos^2>     Qbk       Qpha
 JO=1:  1.2391E+00 1.0535E+00 1.8565E-01  4.1663E-01 4.0098E-01 1.4419E-03  9.2504E-01
 JO=2:  1.2391E+00 1.0535E+00 1.8565E-01  4.1663E-01 4.0098E-01 1.4419E-03  9.2504E-01
 mean:  1.2391E+00 1.0535E+00 1.8565E-01  4.1663E-01 4.0098E-01 1.4419E-03  9.2504E-01
 Qpol=  2.8610E-06                                                  dQpha=  1.7881E-06
         Qsca*g(1)   Qsca*g(2)   Qsca*g(3)   iter  mxiter  Nsca
 JO=1:  7.7348E-02  4.8068E-09  1.3649E-08      9   1200    324
 JO=2:  7.7347E-02  8.6478E-09  4.8641E-09      8   1200    324
 mean:  7.7347E-02  6.7273E-09  9.2564E-09
            Mueller matrix elements for selected scattering directions in Lab Frame   
 theta    phi    Pol.    S_11        S_12        S_21       S_22       S_31       S_41
  0.00   0.00  0.00000  5.7778E-02  1.1735E-07  1.173E-07  5.778E-02 -1.502E-10  1.059E-11
  5.00   0.00  0.00396  5.7528E-02 -2.2809E-04 -2.281E-04  5.753E-02 -1.219E-10 -1.268E-10
 10.00   0.00  0.01592  5.6778E-02 -9.0407E-04 -9.041E-04  5.678E-02  4.973E-10 -7.719E-10
 15.00   0.00  0.03606  5.5542E-02 -2.0026E-03 -2.003E-03  5.554E-02 -2.087E-09 -1.643E-09
 20.00   0.00  0.06465  5.3837E-02 -3.4807E-03 -3.481E-03  5.384E-02  1.054E-09 -9.118E-10
 25.00   0.00  0.10209  5.1695E-02 -5.2773E-03 -5.277E-03  5.169E-02 -7.216E-10  1.045E-09
 30.00   0.00  0.14876  4.9157E-02 -7.3128E-03 -7.313E-03  4.916E-02  2.372E-09 -1.218E-10
 35.00   0.00  0.20505  4.6283E-02 -9.4903E-03 -9.490E-03  4.628E-02 -2.689E-11  9.589E-10
 40.00   0.00  0.27117  4.3141E-02 -1.1698E-02 -1.170E-02  4.314E-02 -1.169E-10 -1.410E-09
 45.00   0.00  0.34700  3.9817E-02 -1.3816E-02 -1.382E-02  3.982E-02  2.892E-09 -1.477E-09
 50.00   0.00  0.43186  3.6403E-02 -1.5721E-02 -1.572E-02  3.640E-02 -1.370E-10 -4.502E-10
 55.00   0.00  0.52418  3.2996E-02 -1.7296E-02 -1.730E-02  3.300E-02  5.286E-10  5.380E-10
 60.00   0.00  0.62116  2.9688E-02 -1.8441E-02 -1.844E-02  2.969E-02 -1.855E-11  7.485E-10
 65.00   0.00  0.71850  2.6562E-02 -1.9085E-02 -1.908E-02  2.656E-02 -1.037E-09 -3.206E-10
 70.00   0.00  0.81029  2.3681E-02 -1.9188E-02 -1.919E-02  2.368E-02 -8.609E-10  1.310E-11
 75.00   0.00  0.88938  2.1085E-02 -1.8753E-02 -1.875E-02  2.109E-02 -8.223E-10 -1.340E-09
 80.00   0.00  0.94828  1.8792E-02 -1.7820E-02 -1.782E-02  1.879E-02  2.945E-09 -2.185E-09
 85.00   0.00  0.98055  1.6792E-02 -1.6466E-02 -1.647E-02  1.679E-02 -8.161E-10 -5.550E-10
 90.00   0.00  0.98239  1.5058E-02 -1.4793E-02 -1.479E-02  1.506E-02  4.239E-09 -5.017E-09
 95.00   0.00  0.95359  1.3548E-02 -1.2919E-02 -1.292E-02  1.355E-02 -1.250E-10  1.023E-09
100.00   0.00  0.89768  1.2216E-02 -1.0966E-02 -1.097E-02  1.222E-02  7.578E-10 -4.130E-10
105.00   0.00  0.82088  1.1017E-02 -9.0435E-03 -9.043E-03  1.102E-02  2.813E-10 -9.855E-10
110.00   0.00  0.73068  9.9132E-03 -7.2435E-03 -7.243E-03  9.913E-03 -1.228E-10 -5.183E-10
115.00   0.00  0.63433  8.8792E-03 -5.6323E-03 -5.632E-03  8.879E-03  6.862E-10  5.731E-10
120.00   0.00  0.53787  7.9007E-03 -4.2495E-03 -4.250E-03  7.901E-03 -2.089E-10  8.134E-10
125.00   0.00  0.44578  6.9745E-03 -3.1091E-03 -3.109E-03  6.974E-03 -1.129E-10  8.375E-10
130.00   0.00  0.36101  6.1055E-03 -2.2041E-03 -2.204E-03  6.105E-03  4.610E-10 -4.736E-10
135.00   0.00  0.28521  5.3029E-03 -1.5124E-03 -1.512E-03  5.303E-03  4.536E-10 -2.921E-10
140.00   0.00  0.21911  4.5774E-03 -1.0030E-03 -1.003E-03  4.577E-03  1.779E-10 -3.787E-11
145.00   0.00  0.16281  3.9376E-03 -6.4110E-04 -6.411E-04  3.938E-03 -1.717E-12 -1.387E-10
150.00   0.00  0.11601  3.3894E-03 -3.9321E-04 -3.932E-04  3.389E-03  3.234E-10  4.561E-11
155.00   0.00  0.07817  2.9346E-03 -2.2941E-04 -2.294E-04  2.935E-03  1.580E-10  4.772E-11
160.00   0.00  0.04864  2.5718E-03 -1.2508E-04 -1.251E-04  2.572E-03  2.172E-11  8.147E-11
165.00   0.00  0.02669  2.2971E-03 -6.1305E-05 -6.131E-05  2.297E-03  8.336E-11  4.194E-11
170.00   0.00  0.01163  2.1058E-03 -2.4492E-05 -2.449E-05  2.106E-03  4.739E-11 -2.388E-11
175.00   0.00  0.00287  1.9932E-03 -5.7227E-06 -5.723E-06  1.993E-03  4.022E-11  1.396E-11
180.00   0.00  0.00000  1.9560E-03  9.3132E-10  9.313E-10  1.956E-03  5.909E-11 -3.082E-11
