 DDSCAT --- DDSCAT 7.2.2 [12.06.05]   
 TARGET --- Cyl.prism, NAT=   1320 NFAC=  52 NLAY=  20 asp.ratio= 2.4580      
 PBCGS2 --- method of solution 
 GKDLDR --- prescription for polarizabilies
 CYLNDRCAP --- shape 
    1320     = NAT0 = number of dipoles
  0.14695066 = d/aeff for this target [d=dipole spacing]
    0.004940 = d (physical units)
  AEFF=      0.033616 = effective radius (physical units)
  WAVE=      0.385714 = wavelength (in vacuo, physical units)
K*AEFF=      0.547596 = 2*pi*aeff/lambda
NAMBIENT=    1.000000 = refractive index of ambient medium
n= ( 1.6771 ,  1.9323),  eps.= ( -0.9213 ,  6.4814)  |m|kd=  0.2059 for subs. 1
   TOL= 1.000E-05 = error tolerance for CCG method
( 1.00000  0.00000  0.00000) = target axis A1 in Target Frame
( 0.00000  1.00000  0.00000) = target axis A2 in Target Frame
  NAVG=   285 = (theta,phi) values used in comp. of Qsca,g
( 0.08047  0.00000  0.00000) = k vector (latt. units) in Lab Frame
( 0.00000, 0.00000)( 1.00000, 0.00000)( 0.00000, 0.00000)=inc.pol.vec. 1 in LF
( 0.00000, 0.00000)(-0.00000, 0.00000)( 1.00000,-0.00000)=inc.pol.vec. 2 in LF
   0.000   0.000 = beta_min, beta_max ;  NBETA = 1
   0.000   0.000 = theta_min, theta_max; NTHETA= 1
   0.000   0.000 = phi_min, phi_max   ;   NPHI = 1

 0.5000 = ETASCA = param. controlling # of scatt. dirs used to calculate <cos> etc.
 Results averaged over    1 target orientations
                   and    2 incident polarizations
          Qext       Qabs       Qsca      g(1)=<cos>  <cos^2>     Qbk       Qpha
 JO=1:  9.6539E-01 8.5586E-01 1.0954E-01  2.9974E-01 3.8927E-01 3.0881E-03  8.0845E-01
 JO=2:  9.6539E-01 8.5586E-01 1.0954E-01  2.9974E-01 3.8927E-01 3.0881E-03  8.0845E-01
 mean:  9.6539E-01 8.5586E-01 1.0954E-01  2.9974E-01 3.8927E-01 3.0881E-03  8.0845E-01
 Qpol=  5.9605E-07                                                  dQpha=  2.3842E-07
         Qsca*g(1)   Qsca*g(2)   Qsca*g(3)   iter  mxiter  Nsca
 JO=1:  3.2833E-02  1.1216E-09 -1.4667E-08      9   1200    285
 JO=2:  3.2833E-02  7.8733E-09  4.7929E-09      9   1200    285
 mean:  3.2833E-02  4.4974E-09 -4.9368E-09
            Mueller matrix elements for selected scattering directions in Lab Frame   
 theta    phi    Pol.    S_11        S_12        S_21       S_22       S_31       S_41
  0.00   0.00  0.00000  1.9930E-02  8.3819E-09  8.382E-09  1.993E-02 -1.039E-10 -7.249E-11
  5.00   0.00  0.00395  1.9847E-02 -7.8417E-05 -7.842E-05  1.985E-02 -8.554E-11  1.688E-10
 10.00   0.00  0.01587  1.9600E-02 -3.1097E-04 -3.110E-04  1.960E-02 -2.418E-10 -5.823E-11
 15.00   0.00  0.03592  1.9194E-02 -6.8954E-04 -6.895E-04  1.919E-02  4.752E-10 -7.732E-11
 20.00   0.00  0.06441  1.8636E-02 -1.2004E-03 -1.200E-03  1.864E-02  2.489E-10  1.164E-11
 25.00   0.00  0.10170  1.7939E-02 -1.8243E-03 -1.824E-03  1.794E-02  1.751E-10  1.123E-10
 30.00   0.00  0.14818  1.7117E-02 -2.5364E-03 -2.536E-03  1.712E-02 -9.631E-10  1.101E-09
 35.00   0.00  0.20424  1.6191E-02 -3.3069E-03 -3.307E-03  1.619E-02 -6.251E-10  1.194E-10
 40.00   0.00  0.27009  1.5185E-02 -4.1012E-03 -4.101E-03  1.518E-02 -2.333E-10 -8.809E-10
 45.00   0.00  0.34564  1.4125E-02 -4.8822E-03 -4.882E-03  1.413E-02  7.682E-10 -1.734E-10
 50.00   0.00  0.43023  1.3042E-02 -5.6113E-03 -5.611E-03  1.304E-02 -1.020E-09 -3.073E-10
 55.00   0.00  0.52238  1.1967E-02 -6.2511E-03 -6.251E-03  1.197E-02  4.923E-10  7.599E-10
 60.00   0.00  0.61939  1.0927E-02 -6.7679E-03 -6.768E-03  1.093E-02  3.610E-10 -3.290E-10
 65.00   0.00  0.71711  9.9491E-03 -7.1346E-03 -7.135E-03  9.949E-03  4.294E-10  6.136E-10
 70.00   0.00  0.80981  9.0547E-03 -7.3326E-03 -7.333E-03  9.055E-03  1.276E-09  2.643E-10
 75.00   0.00  0.89051  8.2580E-03 -7.3538E-03 -7.354E-03  8.258E-03 -1.293E-09  7.462E-10
 80.00   0.00  0.95181  7.5657E-03 -7.2011E-03 -7.201E-03  7.566E-03 -8.227E-10  3.635E-10
 85.00   0.00  0.98725  6.9774E-03 -6.8884E-03 -6.888E-03  6.977E-03 -3.337E-10  1.077E-10
 90.00   0.00  0.99278  6.4856E-03 -6.4388E-03 -6.439E-03  6.486E-03  1.763E-10  2.421E-10
 95.00   0.00  0.96786  6.0776E-03 -5.8823E-03 -5.882E-03  6.078E-03  9.126E-10 -5.520E-10
100.00   0.00  0.91556  5.7375E-03 -5.2531E-03 -5.253E-03  5.738E-03  7.862E-11  1.330E-10
105.00   0.00  0.84177  5.4481E-03 -4.5861E-03 -4.586E-03  5.448E-03 -4.949E-11 -1.134E-10
110.00   0.00  0.75371  5.1932E-03 -3.9142E-03 -3.914E-03  5.193E-03 -1.612E-10  2.579E-10
115.00   0.00  0.65856  4.9588E-03 -3.2657E-03 -3.266E-03  4.959E-03  7.787E-11  1.531E-10
120.00   0.00  0.56239  4.7349E-03 -2.6628E-03 -2.663E-03  4.735E-03  3.261E-10 -2.040E-10
125.00   0.00  0.46979  4.5150E-03 -2.1211E-03 -2.121E-03  4.515E-03  3.444E-10  1.646E-10
130.00   0.00  0.38383  4.2966E-03 -1.6491E-03 -1.649E-03  4.297E-03  1.163E-10  2.601E-10
135.00   0.00  0.30626  4.0805E-03 -1.2497E-03 -1.250E-03  4.080E-03 -2.895E-10  1.559E-10
140.00   0.00  0.23793  3.8697E-03 -9.2072E-04 -9.207E-04  3.870E-03 -7.896E-11  1.017E-10
145.00   0.00  0.17902  3.6686E-03 -6.5676E-04 -6.568E-04  3.669E-03 -1.191E-10  1.030E-10
150.00   0.00  0.12932  3.4825E-03 -4.5036E-04 -4.504E-04  3.482E-03  8.969E-11 -1.379E-10
155.00   0.00  0.08842  3.3162E-03 -2.9321E-04 -2.932E-04  3.316E-03  4.105E-11  8.157E-11
160.00   0.00  0.05583  3.1742E-03 -1.7720E-04 -1.772E-04  3.174E-03  8.786E-11 -4.398E-11
165.00   0.00  0.03106  3.0601E-03 -9.5035E-05 -9.503E-05  3.060E-03  4.962E-11  1.044E-11
170.00   0.00  0.01369  2.9768E-03 -4.0753E-05 -4.075E-05  2.977E-03 -1.206E-11 -1.561E-11
175.00   0.00  0.00340  2.9261E-03 -9.9613E-06 -9.961E-06  2.926E-03 -2.603E-11  8.089E-12
180.00   0.00  0.00000  2.9091E-03 -1.7462E-09 -1.746E-09  2.909E-03 -2.592E-11 -9.844E-12
