 DDSCAT --- DDSCAT 7.2.2 [12.06.05]   
 TARGET --- Cyl.prism, NAT=   1320 NFAC=  52 NLAY=  20 asp.ratio= 2.4580      
 PBCGS2 --- method of solution 
 GKDLDR --- prescription for polarizabilies
 CYLNDRCAP --- shape 
    1320     = NAT0 = number of dipoles
  0.14695066 = d/aeff for this target [d=dipole spacing]
    0.004940 = d (physical units)
  AEFF=      0.033616 = effective radius (physical units)
  WAVE=      0.407143 = wavelength (in vacuo, physical units)
K*AEFF=      0.518775 = 2*pi*aeff/lambda
NAMBIENT=    1.000000 = refractive index of ambient medium
n= ( 1.6462 ,  1.9594),  eps.= ( -1.1293 ,  6.4512)  |m|kd=  0.1951 for subs. 1
   TOL= 1.000E-05 = error tolerance for CCG method
( 1.00000  0.00000  0.00000) = target axis A1 in Target Frame
( 0.00000  1.00000  0.00000) = target axis A2 in Target Frame
  NAVG=   285 = (theta,phi) values used in comp. of Qsca,g
( 0.07623  0.00000  0.00000) = k vector (latt. units) in Lab Frame
( 0.00000, 0.00000)( 1.00000, 0.00000)( 0.00000, 0.00000)=inc.pol.vec. 1 in LF
( 0.00000, 0.00000)(-0.00000, 0.00000)( 1.00000,-0.00000)=inc.pol.vec. 2 in LF
   0.000   0.000 = beta_min, beta_max ;  NBETA = 1
   0.000   0.000 = theta_min, theta_max; NTHETA= 1
   0.000   0.000 = phi_min, phi_max   ;   NPHI = 1

 0.5000 = ETASCA = param. controlling # of scatt. dirs used to calculate <cos> etc.
 Results averaged over    1 target orientations
                   and    2 incident polarizations
          Qext       Qabs       Qsca      g(1)=<cos>  <cos^2>     Qbk       Qpha
 JO=1:  8.9305E-01 7.9973E-01 9.3328E-02  2.6982E-01 3.8804E-01 3.2541E-03  7.7826E-01
 JO=2:  8.9305E-01 7.9973E-01 9.3328E-02  2.6982E-01 3.8804E-01 3.2540E-03  7.7826E-01
 mean:  8.9305E-01 7.9973E-01 9.3328E-02  2.6982E-01 3.8804E-01 3.2540E-03  7.7826E-01
 Qpol= -1.1921E-07                                                  dQpha=  3.5763E-07
         Qsca*g(1)   Qsca*g(2)   Qsca*g(3)   iter  mxiter  Nsca
 JO=1:  2.5182E-02  1.2139E-09 -5.6635E-10      9   1200    285
 JO=2:  2.5182E-02  1.7201E-09  2.8654E-09      9   1200    285
 mean:  2.5182E-02  1.4670E-09  1.1495E-09
            Mueller matrix elements for selected scattering directions in Lab Frame   
 theta    phi    Pol.    S_11        S_12        S_21       S_22       S_31       S_41
  0.00   0.00  0.00000  1.4578E-02  4.1910E-09  4.191E-09  1.458E-02  1.492E-11  2.231E-11
  5.00   0.00  0.00395  1.4518E-02 -5.7313E-05 -5.731E-05  1.452E-02  3.667E-11  3.923E-11
 10.00   0.00  0.01585  1.4339E-02 -2.2728E-04 -2.273E-04  1.434E-02  3.880E-11 -1.043E-10
 15.00   0.00  0.03589  1.4045E-02 -5.0408E-04 -5.041E-04  1.405E-02  1.445E-10  2.192E-10
 20.00   0.00  0.06435  1.3642E-02 -8.7783E-04 -8.778E-04  1.364E-02 -4.479E-10  3.805E-10
 25.00   0.00  0.10159  1.3138E-02 -1.3348E-03 -1.335E-03  1.314E-02  1.625E-10  6.273E-12
 30.00   0.00  0.14803  1.2546E-02 -1.8572E-03 -1.857E-03  1.255E-02  2.492E-10 -2.388E-10
 35.00   0.00  0.20402  1.1880E-02 -2.4237E-03 -2.424E-03  1.188E-02  3.694E-11  3.903E-10
 40.00   0.00  0.26980  1.1157E-02 -3.0100E-03 -3.010E-03  1.116E-02  1.946E-10 -1.658E-09
 45.00   0.00  0.34526  1.0397E-02 -3.5896E-03 -3.590E-03  1.040E-02 -6.691E-10 -1.010E-10
 50.00   0.00  0.42978  9.6209E-03 -4.1349E-03 -4.135E-03  9.621E-03 -1.420E-11  6.522E-10
 55.00   0.00  0.52186  8.8514E-03 -4.6191E-03 -4.619E-03  8.851E-03 -2.443E-10 -3.374E-10
 60.00   0.00  0.61883  8.1090E-03 -5.0181E-03 -5.018E-03  8.109E-03 -3.249E-11 -1.296E-10
 65.00   0.00  0.71657  7.4127E-03 -5.3117E-03 -5.312E-03  7.413E-03 -3.615E-10 -4.628E-10
 70.00   0.00  0.80939  6.7775E-03 -5.4856E-03 -5.486E-03  6.777E-03 -1.214E-10  3.727E-10
 75.00   0.00  0.89034  6.2142E-03 -5.5327E-03 -5.533E-03  6.214E-03  5.551E-12 -4.198E-10
 80.00   0.00  0.95205  5.7281E-03 -5.4534E-03 -5.453E-03  5.728E-03  5.890E-11 -7.776E-11
 85.00   0.00  0.98804  5.3194E-03 -5.2558E-03 -5.256E-03  5.319E-03 -8.003E-10 -1.443E-10
 90.00   0.00  0.99423  4.9832E-03 -4.9544E-03 -4.954E-03  4.983E-03  4.596E-10  1.701E-11
 95.00   0.00  0.96999  4.7106E-03 -4.5692E-03 -4.569E-03  4.711E-03 -3.197E-10  1.938E-11
100.00   0.00  0.91834  4.4902E-03 -4.1236E-03 -4.124E-03  4.490E-03  4.183E-10  2.863E-11
105.00   0.00  0.84506  4.3095E-03 -3.6418E-03 -3.642E-03  4.309E-03  6.728E-11 -2.233E-11
110.00   0.00  0.75736  4.1560E-03 -3.1476E-03 -3.148E-03  4.156E-03 -2.536E-12  2.198E-10
115.00   0.00  0.66237  4.0190E-03 -2.6621E-03 -2.662E-03  4.019E-03 -6.292E-13 -3.931E-10
120.00   0.00  0.56620  3.8898E-03 -2.2024E-03 -2.202E-03  3.890E-03  2.210E-10 -2.653E-10
125.00   0.00  0.47345  3.7628E-03 -1.7815E-03 -1.782E-03  3.763E-03 -1.325E-10  2.890E-10
130.00   0.00  0.38721  3.6350E-03 -1.4075E-03 -1.407E-03  3.635E-03 -1.580E-10  3.563E-10
135.00   0.00  0.30928  3.5059E-03 -1.0843E-03 -1.084E-03  3.506E-03  5.292E-11  4.104E-11
140.00   0.00  0.24054  3.3771E-03 -8.1232E-04 -8.123E-04  3.377E-03 -1.066E-10  3.122E-10
145.00   0.00  0.18117  3.2514E-03 -5.8907E-04 -5.891E-04  3.251E-03  7.195E-12  1.627E-10
150.00   0.00  0.13101  3.1325E-03 -4.1040E-04 -4.104E-04  3.133E-03  4.869E-11  1.695E-10
155.00   0.00  0.08966  3.0243E-03 -2.7117E-04 -2.712E-04  3.024E-03 -1.611E-11  1.679E-11
160.00   0.00  0.05667  2.9304E-03 -1.6605E-04 -1.660E-04  2.930E-03 -2.973E-12  6.512E-11
165.00   0.00  0.03155  2.8539E-03 -9.0035E-05 -9.003E-05  2.854E-03  5.752E-11  3.371E-11
170.00   0.00  0.01392  2.7975E-03 -3.8928E-05 -3.893E-05  2.797E-03 -3.078E-12  4.340E-11
175.00   0.00  0.00346  2.7629E-03 -9.5684E-06 -9.568E-06  2.763E-03  2.360E-11 -5.674E-12
180.00   0.00  0.00000  2.7513E-03  3.2596E-09  3.260E-09  2.751E-03 -3.075E-12  2.369E-11
