 DDSCAT --- DDSCAT 7.2.2 [12.06.05]   
 TARGET --- Cyl.prism, NAT=   1320 NFAC=  52 NLAY=  20 asp.ratio= 2.4580      
 PBCGS2 --- method of solution 
 GKDLDR --- prescription for polarizabilies
 CYLNDRCAP --- shape 
    1320     = NAT0 = number of dipoles
  0.14695066 = d/aeff for this target [d=dipole spacing]
    0.004940 = d (physical units)
  AEFF=      0.033616 = effective radius (physical units)
  WAVE=      0.471429 = wavelength (in vacuo, physical units)
K*AEFF=      0.448033 = 2*pi*aeff/lambda
NAMBIENT=    1.000000 = refractive index of ambient medium
n= ( 1.3080 ,  1.8052),  eps.= ( -1.5479 ,  4.7224)  |m|kd=  0.1468 for subs. 1
   TOL= 1.000E-05 = error tolerance for CCG method
( 1.00000  0.00000  0.00000) = target axis A1 in Target Frame
( 0.00000  1.00000  0.00000) = target axis A2 in Target Frame
  NAVG=   285 = (theta,phi) values used in comp. of Qsca,g
( 0.06584  0.00000  0.00000) = k vector (latt. units) in Lab Frame
( 0.00000, 0.00000)( 1.00000, 0.00000)( 0.00000, 0.00000)=inc.pol.vec. 1 in LF
( 0.00000, 0.00000)(-0.00000, 0.00000)( 1.00000,-0.00000)=inc.pol.vec. 2 in LF
   0.000   0.000 = beta_min, beta_max ;  NBETA = 1
   0.000   0.000 = theta_min, theta_max; NTHETA= 1
   0.000   0.000 = phi_min, phi_max   ;   NPHI = 1

 0.5000 = ETASCA = param. controlling # of scatt. dirs used to calculate <cos> etc.
 Results averaged over    1 target orientations
                   and    2 incident polarizations
          Qext       Qabs       Qsca      g(1)=<cos>  <cos^2>     Qbk       Qpha
 JO=1:  9.0056E-01 8.3726E-01 6.3308E-02  2.0297E-01 3.8777E-01 3.2910E-03  6.7783E-01
 JO=2:  9.0056E-01 8.3726E-01 6.3309E-02  2.0297E-01 3.8777E-01 3.2910E-03  6.7783E-01
 mean:  9.0056E-01 8.3726E-01 6.3308E-02  2.0297E-01 3.8777E-01 3.2910E-03  6.7783E-01
 Qpol=  1.7881E-07                                                  dQpha=  4.1723E-07
         Qsca*g(1)   Qsca*g(2)   Qsca*g(3)   iter  mxiter  Nsca
 JO=1:  1.2850E-02  7.0223E-10  2.0443E-09      9   1200    285
 JO=2:  1.2850E-02  2.5949E-09  6.0069E-10      9   1200    285
 mean:  1.2850E-02  1.6486E-09  1.3225E-09
            Mueller matrix elements for selected scattering directions in Lab Frame   
 theta    phi    Pol.    S_11        S_12        S_21       S_22       S_31       S_41
  0.00   0.00  0.00000  6.6707E-03  3.2596E-09  3.260E-09  6.671E-03 -3.444E-11 -3.403E-11
  5.00   0.00  0.00393  6.6437E-03 -2.6084E-05 -2.608E-05  6.644E-03 -6.808E-11 -2.259E-12
 10.00   0.00  0.01577  6.5635E-03 -1.0348E-04 -1.035E-04  6.564E-03 -1.029E-11 -1.324E-11
 15.00   0.00  0.03570  6.4318E-03 -2.2959E-04 -2.296E-04  6.432E-03 -1.220E-10 -5.139E-12
 20.00   0.00  0.06400  6.2517E-03 -4.0010E-04 -4.001E-04  6.252E-03  1.262E-11 -4.234E-11
 25.00   0.00  0.10104  6.0273E-03 -6.0898E-04 -6.090E-04  6.027E-03  7.217E-11 -1.063E-10
 30.00   0.00  0.14721  5.7644E-03 -8.4857E-04 -8.486E-04  5.764E-03 -1.816E-10  3.422E-11
 35.00   0.00  0.20288  5.4698E-03 -1.1097E-03 -1.110E-03  5.470E-03  1.731E-11 -1.718E-10
 40.00   0.00  0.26829  5.1513E-03 -1.3820E-03 -1.382E-03  5.151E-03  1.449E-10 -4.231E-10
 45.00   0.00  0.34334  4.8179E-03 -1.6542E-03 -1.654E-03  4.818E-03 -1.598E-10 -6.980E-11
 50.00   0.00  0.42744  4.4790E-03 -1.9145E-03 -1.915E-03  4.479E-03 -7.819E-11  1.450E-11
 55.00   0.00  0.51915  4.1443E-03 -2.1515E-03 -2.151E-03  4.144E-03 -1.641E-10 -2.516E-11
 60.00   0.00  0.61588  3.8228E-03 -2.3544E-03 -2.354E-03  3.823E-03 -8.901E-11 -3.633E-11
 65.00   0.00  0.71362  3.5231E-03 -2.5141E-03 -2.514E-03  3.523E-03 -4.033E-11  7.564E-11
 70.00   0.00  0.80680  3.2519E-03 -2.6237E-03 -2.624E-03  3.252E-03 -1.150E-10  9.073E-12
 75.00   0.00  0.88860  3.0144E-03 -2.6786E-03 -2.679E-03  3.014E-03 -1.076E-10 -5.693E-11
 80.00   0.00  0.95171  2.8135E-03 -2.6776E-03 -2.678E-03  2.814E-03  3.589E-11  3.613E-11
 85.00   0.00  0.98959  2.6498E-03 -2.6223E-03 -2.622E-03  2.650E-03  8.137E-11  1.231E-10
 90.00   0.00  0.99800  2.5219E-03 -2.5169E-03 -2.517E-03  2.522E-03 -8.882E-11  2.847E-10
 95.00   0.00  0.97605  2.4265E-03 -2.3684E-03 -2.368E-03  2.426E-03 -9.821E-11  5.605E-11
100.00   0.00  0.92644  2.3587E-03 -2.1852E-03 -2.185E-03  2.359E-03  2.614E-11 -6.659E-11
105.00   0.00  0.85474  2.3131E-03 -1.9771E-03 -1.977E-03  2.313E-03  9.643E-12  2.512E-12
110.00   0.00  0.76801  2.2839E-03 -1.7540E-03 -1.754E-03  2.284E-03 -5.912E-13  3.799E-11
115.00   0.00  0.67336  2.2653E-03 -1.5254E-03 -1.525E-03  2.265E-03 -4.869E-11  1.037E-10
120.00   0.00  0.57698  2.2526E-03 -1.2997E-03 -1.300E-03  2.253E-03  1.414E-10 -1.105E-10
125.00   0.00  0.48357  2.2419E-03 -1.0841E-03 -1.084E-03  2.242E-03 -6.546E-11  1.303E-10
130.00   0.00  0.39636  2.2304E-03 -8.8402E-04 -8.840E-04  2.230E-03 -1.284E-12  6.747E-11
135.00   0.00  0.31726  2.2165E-03 -7.0319E-04 -7.032E-04  2.216E-03 -2.816E-11  1.272E-10
140.00   0.00  0.24723  2.1996E-03 -5.4382E-04 -5.438E-04  2.200E-03 -2.248E-11  6.796E-11
145.00   0.00  0.18657  2.1802E-03 -4.0677E-04 -4.068E-04  2.180E-03 -8.684E-12 -1.161E-11
150.00   0.00  0.13516  2.1592E-03 -2.9182E-04 -2.918E-04  2.159E-03 -4.617E-11  5.965E-11
155.00   0.00  0.09265  2.1378E-03 -1.9807E-04 -1.981E-04  2.138E-03 -9.392E-12  3.716E-11
160.00   0.00  0.05863  2.1177E-03 -1.2416E-04 -1.242E-04  2.118E-03  1.848E-11  2.125E-11
165.00   0.00  0.03268  2.1002E-03 -6.8638E-05 -6.864E-05  2.100E-03  6.321E-12  1.353E-11
170.00   0.00  0.01443  2.0868E-03 -3.0108E-05 -3.011E-05  2.087E-03  1.691E-11  6.856E-12
175.00   0.00  0.00359  2.0783E-03 -7.4666E-06 -7.467E-06  2.078E-03 -6.178E-12  1.172E-11
180.00   0.00  0.00000  2.0754E-03 -8.1491E-10 -8.149E-10  2.075E-03  4.304E-12  2.723E-11
